SubjNum	 run	 trial	 objnum	 file	 orientnam	 orientnum	 resp	 respnum	 acc	 rt
100	 4	 1	 10	 object_2.jpg	 cor	 1	 c	 1	 1	 0.863059
100	 4	 2	 5	 object_30.jpg	 cor	 1	 c	 1	 1	 0.849368
100	 4	 3	 7	 object_17.jpg	 cor	 1	 c	 1	 1	 0.656228
100	 4	 4	 6	 object_18.jpg	 cor	 1	 c	 1	 1	 0.563064
100	 4	 5	 4	 object_12.jpg	 cor	 1	 c	 1	 1	 0.680368
100	 4	 6	 5	 object_30.jpg	 cor	 1	 c	 1	 1	 0.547726
100	 4	 7	 8	 object_24.jpg	 cor	 1	 c	 1	 1	 0.600644
100	 4	 8	 4	 object_12.jpg	 cor	 1	 c	 1	 1	 0.785519
100	 4	 9	 5	 object_30.jpg	 cor	 1	 c	 1	 1	 0.570250
100	 4	 10	 10	 object_2.jpg	 cor	 1	 c	 1	 1	 0.729145
100	 4	 11	 7	 object_17.jpg	 cor	 1	 c	 1	 1	 0.508958
100	 4	 12	 4	 object_12.jpg	 cor	 1	 c	 1	 1	 0.449818
100	 4	 13	 3	 object_7.jpg	 cor	 1	 c	 1	 1	 0.637823
100	 4	 14	 4	 object_12.jpg	 rot	 0	 n	 2	 1	 0.619031
100	 4	 15	 8	 object_24.jpg	 cor	 1	 c	 1	 1	 0.590698
100	 4	 16	 6	 object_18.jpg	 cor	 1	 c	 1	 1	 0.759948
100	 4	 17	 8	 object_24.jpg	 rot	 0	 c	 1	 0	 0.557965
100	 4	 18	 9	 object_35.jpg	 cor	 1	 c	 1	 1	 0.688771
100	 4	 19	 5	 object_30.jpg	 cor	 1	 c	 1	 1	 0.695699
100	 4	 20	 9	 object_35.jpg	 rot	 0	 n	 2	 1	 0.763167
100	 4	 21	 7	 object_17.jpg	 cor	 1	 c	 1	 1	 0.813957
100	 4	 22	 10	 object_2.jpg	 cor	 1	 c	 1	 1	 0.617670
100	 4	 23	 9	 object_35.jpg	 cor	 1	 c	 1	 1	 0.625013
100	 4	 24	 6	 object_18.jpg	 cor	 1	 c	 1	 1	 0.697357
100	 4	 25	 9	 object_35.jpg	 rot	 0	 n	 2	 1	 0.741764
100	 4	 26	 6	 object_18.jpg	 rot	 0	 n	 2	 1	 0.740947
100	 4	 27	 9	 object_35.jpg	 rot	 0	 n	 2	 1	 0.689460
100	 4	 28	 8	 object_24.jpg	 cor	 1	 c	 1	 1	 0.734247
100	 4	 29	 6	 object_18.jpg	 cor	 1	 c	 1	 1	 0.691511
100	 4	 30	 9	 object_35.jpg	 cor	 1	 c	 1	 1	 0.575441
100	 4	 31	 5	 object_30.jpg	 cor	 1	 c	 1	 1	 0.540021
100	 4	 32	 8	 object_24.jpg	 cor	 1	 c	 1	 1	 0.497692
100	 4	 33	 9	 object_35.jpg	 cor	 1	 c	 1	 1	 0.519622
100	 4	 34	 4	 object_12.jpg	 cor	 1	 c	 1	 1	 0.543960
100	 4	 35	 3	 object_7.jpg	 cor	 1	 c	 1	 1	 0.488217
100	 4	 36	 1	 object_6.jpg	 cor	 1	 c	 1	 1	 0.534345
100	 4	 37	 2	 object_23.jpg	 cor	 1	 c	 1	 1	 0.516528
100	 4	 38	 1	 object_6.jpg	 rot	 0	 n	 2	 1	 0.720821
100	 4	 39	 20	 object_16.jpg	 cor	 1	 c	 1	 1	 0.711927
100	 4	 40	 2	 object_23.jpg	 cor	 1	 c	 1	 1	 0.574244
100	 4	 41	 19	 object_4.jpg	 cor	 1	 c	 1	 1	 0.608891
100	 4	 42	 20	 object_16.jpg	 cor	 1	 c	 1	 1	 0.572966
100	 4	 43	 1	 object_6.jpg	 cor	 1	 c	 1	 1	 0.611574
100	 4	 44	 3	 object_7.jpg	 cor	 1	 c	 1	 1	 0.537071
100	 4	 45	 2	 object_23.jpg	 cor	 1	 c	 1	 1	 0.476560
100	 4	 46	 18	 object_10.jpg	 cor	 1	 c	 1	 1	 0.796801
100	 4	 47	 17	 object_34.jpg	 cor	 1	 c	 1	 1	 0.623075
100	 4	 48	 16	 object_28.jpg	 cor	 1	 c	 1	 1	 0.609068
100	 4	 49	 12	 object_36.jpg	 cor	 1	 c	 1	 1	 0.548734
100	 4	 50	 17	 object_34.jpg	 cor	 1	 c	 1	 1	 0.578340
100	 4	 51	 13	 object_1.jpg	 cor	 1	 c	 1	 1	 0.577977
100	 4	 52	 14	 object_13.jpg	 cor	 1	 c	 1	 1	 0.651926
100	 4	 53	 15	 object_9.jpg	 cor	 1	 c	 1	 1	 0.607682
100	 4	 54	 12	 object_36.jpg	 cor	 1	 c	 1	 1	 0.547025
100	 4	 55	 14	 object_13.jpg	 cor	 1	 c	 1	 1	 0.493663
100	 4	 56	 16	 object_28.jpg	 cor	 1	 c	 1	 1	 0.701020
100	 4	 57	 12	 object_36.jpg	 cor	 1	 c	 1	 1	 0.547643
100	 4	 58	 15	 object_9.jpg	 cor	 1	 c	 1	 1	 0.624934
100	 4	 59	 16	 object_28.jpg	 cor	 1	 c	 1	 1	 0.458752
100	 4	 60	 14	 object_13.jpg	 cor	 1	 c	 1	 1	 0.556083
100	 4	 61	 12	 object_36.jpg	 cor	 1	 c	 1	 1	 0.543703
100	 4	 62	 15	 object_9.jpg	 cor	 1	 c	 1	 1	 0.592903
100	 4	 63	 17	 object_34.jpg	 cor	 1	 c	 1	 1	 0.503176
100	 4	 64	 18	 object_10.jpg	 cor	 1	 c	 1	 1	 0.475694
100	 4	 65	 17	 object_34.jpg	 rot	 0	 c	 1	 0	 0.525925
100	 4	 66	 13	 object_1.jpg	 cor	 1	 c	 1	 1	 0.562620
100	 4	 67	 11	 object_3.jpg	 cor	 1	 c	 1	 1	 0.667858
100	 4	 68	 12	 object_36.jpg	 cor	 1	 c	 1	 1	 0.697432
100	 4	 69	 16	 object_28.jpg	 cor	 1	 c	 1	 1	 0.546716
100	 4	 70	 11	 object_3.jpg	 cor	 1	 c	 1	 1	 0.542217
100	 4	 71	 10	 object_2.jpg	 cor	 1	 c	 1	 1	 0.533482
100	 4	 72	 9	 object_35.jpg	 cor	 1	 c	 1	 1	 0.570263
100	 4	 73	 7	 object_17.jpg	 cor	 1	 c	 1	 1	 0.602841
100	 4	 74	 5	 object_30.jpg	 cor	 1	 c	 1	 1	 0.677371
100	 4	 75	 10	 object_2.jpg	 cor	 1	 c	 1	 1	 0.530958
100	 4	 76	 8	 object_24.jpg	 cor	 1	 c	 1	 1	 0.547756
100	 4	 77	 10	 object_2.jpg	 rot	 0	 n	 2	 1	 0.692126
100	 4	 78	 8	 object_24.jpg	 rot	 0	 n	 2	 1	 0.649921
100	 4	 79	 9	 object_35.jpg	 cor	 1	 c	 1	 1	 0.646408
100	 4	 80	 8	 object_24.jpg	 rot	 0	 n	 2	 1	 0.739488
100	 4	 81	 4	 object_12.jpg	 cor	 1	 c	 1	 1	 0.626792
100	 4	 82	 3	 object_7.jpg	 cor	 1	 c	 1	 1	 0.639019
100	 4	 83	 21	 object_25.jpg	 cor	 1	 c	 1	 1	 0.641476
100	 4	 84	 1	 object_6.jpg	 cor	 1	 c	 1	 1	 0.615371
100	 4	 85	 19	 object_4.jpg	 cor	 1	 c	 1	 1	 0.630152
100	 4	 86	 18	 object_10.jpg	 cor	 1	 c	 1	 1	 0.636698
100	 4	 87	 1	 object_6.jpg	 cor	 1	 c	 1	 1	 0.541584
100	 4	 88	 18	 object_10.jpg	 rot	 0	 n	 2	 1	 0.931586
100	 4	 89	 1	 object_6.jpg	 rot	 0	 n	 2	 1	 0.852464
100	 4	 90	 18	 object_10.jpg	 rot	 0	 n	 2	 1	 0.620677
100	 4	 91	 1	 object_6.jpg	 rot	 0	 n	 2	 1	 0.542723
100	 4	 92	 21	 object_25.jpg	 cor	 1	 c	 1	 1	 0.674299
100	 4	 93	 20	 object_16.jpg	 cor	 1	 c	 1	 1	 0.625826
100	 4	 94	 3	 object_7.jpg	 cor	 1	 c	 1	 1	 0.567354
100	 4	 95	 21	 object_25.jpg	 cor	 1	 c	 1	 1	 0.592646
100	 4	 96	 2	 object_23.jpg	 cor	 1	 c	 1	 1	 0.611059
100	 4	 97	 3	 object_7.jpg	 cor	 1	 c	 1	 1	 0.711129
100	 4	 98	 4	 object_12.jpg	 cor	 1	 c	 1	 1	 0.559962
100	 4	 99	 9	 object_35.jpg	 cor	 1	 c	 1	 1	 0.607314
100	 4	 100	 4	 object_12.jpg	 rot	 0	 n	 2	 1	 0.861220
100	 4	 101	 8	 object_24.jpg	 cor	 1	 c	 1	 1	 0.899516
100	 4	 102	 6	 object_18.jpg	 cor	 1	 c	 1	 1	 0.651590
100	 4	 103	 8	 object_24.jpg	 rot	 0	 n	 2	 1	 0.713828
100	 4	 104	 10	 object_2.jpg	 cor	 1	 c	 1	 1	 0.596800
100	 4	 105	 5	 object_30.jpg	 cor	 1	 c	 1	 1	 0.597380
100	 4	 106	 6	 object_18.jpg	 cor	 1	 c	 1	 1	 0.598500
100	 4	 107	 8	 object_24.jpg	 cor	 1	 c	 1	 1	 0.658138
100	 4	 108	 9	 object_35.jpg	 cor	 1	 c	 1	 1	 0.558685
100	 4	 109	 10	 object_2.jpg	 cor	 1	 c	 1	 1	 0.560820
100	 4	 110	 9	 object_35.jpg	 rot	 0	 n	 2	 1	 0.744982
100	 4	 111	 6	 object_18.jpg	 cor	 1	 c	 1	 1	 0.534450
100	 4	 112	 10	 object_2.jpg	 cor	 1	 c	 1	 1	 0.569172
100	 4	 113	 11	 object_3.jpg	 cor	 1	 c	 1	 1	 0.633917
100	 4	 114	 10	 object_2.jpg	 rot	 0	 n	 2	 1	 0.713893
100	 4	 115	 9	 object_35.jpg	 cor	 1	 c	 1	 1	 0.564542
100	 4	 116	 10	 object_2.jpg	 rot	 0	 n	 2	 1	 0.752196
100	 4	 117	 7	 object_17.jpg	 cor	 1	 c	 1	 1	 0.589026
100	 4	 118	 6	 object_18.jpg	 cor	 1	 c	 1	 1	 0.602236
100	 4	 119	 10	 object_2.jpg	 cor	 1	 c	 1	 1	 0.660331
100	 4	 120	 9	 object_35.jpg	 cor	 1	 c	 1	 1	 0.601529
100	 4	 121	 10	 object_2.jpg	 rot	 0	 n	 2	 1	 0.702687
100	 4	 122	 9	 object_35.jpg	 rot	 0	 n	 2	 1	 0.729430
100	 4	 123	 5	 object_30.jpg	 cor	 1	 c	 1	 1	 0.575274
100	 4	 124	 10	 object_2.jpg	 cor	 1	 c	 1	 1	 0.714416
100	 4	 125	 7	 object_17.jpg	 cor	 1	 c	 1	 1	 0.714538
100	 4	 126	 5	 object_30.jpg	 cor	 1	 c	 1	 1	 0.638006
100	 4	 127	 8	 object_24.jpg	 cor	 1	 c	 1	 1	 0.708173
100	 4	 128	 7	 object_17.jpg	 cor	 1	 c	 1	 1	 0.587990
100	 4	 129	 8	 object_24.jpg	 rot	 0	 n	 2	 1	 0.660095
100	 4	 130	 10	 object_2.jpg	 cor	 1	 c	 1	 1	 0.741925
100	 4	 131	 6	 object_18.jpg	 cor	 1	 c	 1	 1	 0.641447
100	 4	 132	 10	 object_2.jpg	 rot	 0	 n	 2	 1	 0.762827
100	 4	 133	 8	 object_24.jpg	 cor	 1	 c	 1	 1	 0.665636
100	 4	 134	 6	 object_18.jpg	 cor	 1	 c	 1	 1	 0.583888
100	 4	 135	 5	 object_30.jpg	 cor	 1	 c	 1	 1	 0.709744
100	 4	 136	 9	 object_35.jpg	 cor	 1	 c	 1	 1	 0.581620
100	 4	 137	 4	 object_12.jpg	 cor	 1	 c	 1	 1	 0.640552
100	 4	 138	 3	 object_7.jpg	 cor	 1	 c	 1	 1	 0.637430
100	 4	 139	 20	 object_16.jpg	 cor	 1	 c	 1	 1	 0.616139
100	 4	 140	 21	 object_25.jpg	 cor	 1	 c	 1	 1	 0.659980
100	 4	 141	 20	 object_16.jpg	 rot	 0	 n	 2	 1	 0.796111
100	 4	 142	 19	 object_4.jpg	 cor	 1	 c	 1	 1	 0.650309
100	 4	 143	 20	 object_16.jpg	 rot	 0	 n	 2	 1	 0.871616
100	 4	 144	 21	 object_25.jpg	 cor	 1	 c	 1	 1	 0.613097
100	 4	 145	 2	 object_23.jpg	 cor	 1	 c	 1	 1	 0.774263
100	 4	 146	 1	 object_6.jpg	 cor	 1	 c	 1	 1	 0.650249
100	 4	 147	 18	 object_10.jpg	 cor	 1	 c	 1	 1	 0.861084
100	 4	 148	 21	 object_25.jpg	 cor	 1	 c	 1	 1	 1.041330
100	 4	 149	 1	 object_6.jpg	 cor	 1	 c	 1	 1	 0.739732
100	 4	 150	 20	 object_16.jpg	 cor	 1	 c	 1	 1	 0.643438
100	 4	 151	 19	 object_4.jpg	 cor	 1	 c	 1	 1	 0.639041
100	 4	 152	 2	 object_23.jpg	 cor	 1	 c	 1	 1	 0.551864
100	 4	 153	 1	 object_6.jpg	 cor	 1	 c	 1	 1	 0.520809
100	 4	 154	 19	 object_4.jpg	 cor	 1	 c	 1	 1	 0.562409
100	 4	 155	 21	 object_25.jpg	 cor	 1	 c	 1	 1	 0.644137
100	 4	 156	 18	 object_10.jpg	 cor	 1	 c	 1	 1	 0.647469
100	 4	 157	 1	 object_6.jpg	 cor	 1	 c	 1	 1	 0.556025
100	 4	 158	 18	 object_10.jpg	 rot	 0	 c	 1	 0	 0.468293
100	 4	 159	 2	 object_23.jpg	 cor	 1	 c	 1	 1	 0.523804
100	 4	 160	 19	 object_4.jpg	 cor	 1	 c	 1	 1	 0.508991
100	 4	 161	 3	 object_7.jpg	 cor	 1	 c	 1	 1	 0.645069
100	 4	 162	 1	 object_6.jpg	 cor	 1	 c	 1	 1	 0.555978
100	 4	 163	 20	 object_16.jpg	 cor	 1	 c	 1	 1	 0.570422
100	 4	 164	 1	 object_6.jpg	 rot	 0	 c	 1	 0	 0.648478
100	 4	 165	 19	 object_4.jpg	 cor	 1	 c	 1	 1	 0.482073
100	 4	 166	 21	 object_25.jpg	 cor	 1	 c	 1	 1	 0.874085
100	 4	 167	 20	 object_16.jpg	 cor	 1	 c	 1	 1	 0.565465
100	 4	 168	 21	 object_25.jpg	 rot	 0	 n	 2	 1	 0.725237
100	 4	 169	 20	 object_16.jpg	 rot	 0	 n	 2	 1	 0.677451
100	 4	 170	 2	 object_23.jpg	 cor	 1	 c	 1	 1	 0.742629
100	 4	 171	 3	 object_7.jpg	 cor	 1	 c	 1	 1	 0.737033
100	 4	 172	 4	 object_12.jpg	 cor	 1	 c	 1	 1	 0.556199
100	 4	 173	 3	 object_7.jpg	 rot	 0	 n	 2	 1	 0.646119
100	 4	 174	 2	 object_23.jpg	 cor	 1	 c	 1	 1	 0.659733
100	 4	 175	 3	 object_7.jpg	 rot	 0	 n	 2	 1	 0.796578
100	 4	 176	 21	 object_25.jpg	 cor	 1	 c	 1	 1	 0.672348
100	 4	 177	 1	 object_6.jpg	 cor	 1	 c	 1	 1	 0.932959
100	 4	 178	 21	 object_25.jpg	 rot	 0	 n	 2	 1	 0.712886
100	 4	 179	 19	 object_4.jpg	 cor	 1	 c	 1	 1	 0.607400
100	 4	 180	 3	 object_7.jpg	 cor	 1	 c	 1	 1	 0.590859
100	 4	 181	 1	 object_6.jpg	 cor	 1	 c	 1	 1	 0.605483
100	 4	 182	 20	 object_16.jpg	 cor	 1	 c	 1	 1	 0.692820
100	 4	 183	 2	 object_23.jpg	 cor	 1	 c	 1	 1	 0.596133
100	 4	 184	 3	 object_7.jpg	 cor	 1	 c	 1	 1	 0.789988
100	 4	 185	 21	 object_25.jpg	 cor	 1	 c	 1	 1	 0.675345
100	 4	 186	 18	 object_10.jpg	 cor	 1	 c	 1	 1	 0.623535
100	 4	 187	 17	 object_34.jpg	 cor	 1	 c	 1	 1	 1.024075
100	 4	 188	 18	 object_10.jpg	 rot	 0	 n	 2	 1	 0.922849
100	 4	 189	 21	 object_25.jpg	 cor	 1	 c	 1	 1	 0.635587
100	 4	 190	 20	 object_16.jpg	 cor	 1	 c	 1	 1	 0.582343
100	 4	 191	 2	 object_23.jpg	 cor	 1	 c	 1	 1	 0.604896
100	 4	 192	 3	 object_7.jpg	 cor	 1	 c	 1	 1	 0.549535
100	 4	 193	 2	 object_23.jpg	 rot	 0	 n	 2	 1	 0.736282
100	 4	 194	 19	 object_4.jpg	 cor	 1	 c	 1	 1	 0.541225
100	 4	 195	 21	 object_25.jpg	 cor	 1	 c	 1	 1	 0.734114
100	 4	 196	 1	 object_6.jpg	 cor	 1	 c	 1	 1	 0.706984
100	 4	 197	 20	 object_16.jpg	 cor	 1	 c	 1	 1	 0.606731
100	 4	 198	 19	 object_4.jpg	 cor	 1	 c	 1	 1	 0.762867
100	 4	 199	 3	 object_7.jpg	 cor	 1	 c	 1	 1	 0.571813
100	 4	 200	 19	 object_4.jpg	 rot	 0	 n	 2	 1	 0.790876
100	 4	 201	 21	 object_25.jpg	 cor	 1	 c	 1	 1	 0.630906
100	 4	 202	 20	 object_16.jpg	 cor	 1	 c	 1	 1	 0.541479
100	 4	 203	 1	 object_6.jpg	 cor	 1	 c	 1	 1	 0.612619
100	 4	 204	 3	 object_7.jpg	 cor	 1	 c	 1	 1	 0.499021
100	 4	 205	 20	 object_16.jpg	 cor	 1	 c	 1	 1	 0.586570
100	 4	 206	 18	 object_10.jpg	 cor	 1	 c	 1	 1	 0.597549
100	 4	 207	 17	 object_34.jpg	 cor	 1	 c	 1	 1	 0.730577
100	 4	 208	 18	 object_10.jpg	 rot	 0	 n	 2	 1	 0.696668
100	 4	 209	 19	 object_4.jpg	 cor	 1	 c	 1	 1	 0.628437
100	 4	 210	 21	 object_25.jpg	 cor	 1	 c	 1	 1	 0.587703
100	 4	 211	 19	 object_4.jpg	 rot	 0	 n	 2	 1	 0.687409
100	 4	 212	 2	 object_23.jpg	 cor	 1	 c	 1	 1	 0.610445
100	 4	 213	 18	 object_10.jpg	 cor	 1	 c	 1	 1	 0.890198
100	 4	 214	 17	 object_34.jpg	 cor	 1	 c	 1	 1	 0.884081
100	 4	 215	 15	 object_9.jpg	 cor	 1	 c	 1	 1	 0.665638
100	 4	 216	 11	 object_3.jpg	 cor	 1	 c	 1	 1	 0.525677
100	 4	 217	 14	 object_13.jpg	 cor	 1	 c	 1	 1	 0.618906
100	 4	 218	 13	 object_1.jpg	 cor	 1	 c	 1	 1	 0.574371
100	 4	 219	 14	 object_13.jpg	 rot	 0	 c	 1	 0	 0.602383
100	 4	 220	 15	 object_9.jpg	 cor	 1	 c	 1	 1	 0.556401
100	 4	 221	 12	 object_36.jpg	 cor	 1	 c	 1	 1	 0.634022
100	 4	 222	 11	 object_3.jpg	 cor	 1	 c	 1	 1	 0.632245
100	 4	 223	 12	 object_36.jpg	 rot	 0	 n	 2	 1	 0.786026
100	 4	 224	 17	 object_34.jpg	 cor	 1	 c	 1	 1	 0.639591
100	 4	 225	 12	 object_36.jpg	 rot	 0	 n	 2	 1	 0.672242
100	 4	 226	 17	 object_34.jpg	 rot	 0	 n	 2	 1	 1.266489
100	 4	 227	 16	 object_28.jpg	 cor	 1	 c	 1	 1	 0.818232
100	 4	 228	 15	 object_9.jpg	 cor	 1	 c	 1	 1	 0.591178
100	 4	 229	 16	 object_28.jpg	 rot	 0	 n	 2	 1	 0.787574
100	 4	 230	 13	 object_1.jpg	 cor	 1	 c	 1	 1	 0.769537
100	 4	 231	 11	 object_3.jpg	 cor	 1	 c	 1	 1	 0.753960
100	 4	 232	 14	 object_13.jpg	 cor	 1	 c	 1	 1	 0.704701
100	 4	 233	 12	 object_36.jpg	 cor	 1	 c	 1	 1	 0.650636
100	 4	 234	 16	 object_28.jpg	 cor	 1	 c	 1	 1	 0.619963
100	 4	 235	 12	 object_36.jpg	 rot	 0	 n	 2	 1	 0.701184
100	 4	 236	 16	 object_28.jpg	 rot	 0	 n	 2	 1	 0.675103
100	 4	 237	 15	 object_9.jpg	 cor	 1	 c	 1	 1	 0.574370
100	 4	 238	 13	 object_1.jpg	 cor	 1	 c	 1	 1	 0.592464
100	 4	 239	 14	 object_13.jpg	 cor	 1	 c	 1	 1	 0.905757
100	 4	 240	 11	 object_3.jpg	 cor	 1	 c	 1	 1	 0.587076
100	 4	 241	 13	 object_1.jpg	 cor	 1	 c	 1	 1	 0.549788
100	 4	 242	 14	 object_13.jpg	 cor	 1	 c	 1	 1	 0.640688
100	 4	 243	 12	 object_36.jpg	 cor	 1	 c	 1	 1	 0.667286
100	 4	 244	 16	 object_28.jpg	 cor	 1	 c	 1	 1	 0.631184
100	 4	 245	 15	 object_9.jpg	 cor	 1	 c	 1	 1	 0.567331
100	 4	 246	 13	 object_1.jpg	 cor	 1	 c	 1	 1	 0.573231
100	 4	 247	 12	 object_36.jpg	 cor	 1	 c	 1	 1	 1.030476
100	 4	 248	 15	 object_9.jpg	 cor	 1	 c	 1	 1	 0.526234
100	 4	 249	 11	 object_3.jpg	 cor	 1	 c	 1	 1	 0.479824
100	 4	 250	 13	 object_1.jpg	 cor	 1	 c	 1	 1	 0.530456
100	 4	 251	 16	 object_28.jpg	 cor	 1	 c	 1	 1	 0.511957
100	 4	 252	 11	 object_3.jpg	 cor	 1	 c	 1	 1	 0.552825
100	 4	 253	 15	 object_9.jpg	 cor	 1	 c	 1	 1	 0.567483
100	 4	 254	 11	 object_3.jpg	 rot	 0	 n	 2	 1	 0.775781
100	 4	 255	 15	 object_9.jpg	 rot	 0	 n	 2	 1	 0.770417
100	 4	 256	 16	 object_28.jpg	 cor	 1	 c	 1	 1	 0.653946
100	 4	 257	 13	 object_1.jpg	 cor	 1	 c	 1	 1	 0.577101
100	 4	 258	 11	 object_3.jpg	 cor	 1	 c	 1	 1	 0.876873
100	 4	 259	 16	 object_28.jpg	 cor	 1	 c	 1	 1	 0.579064
100	 4	 260	 12	 object_36.jpg	 cor	 1	 c	 1	 1	 0.704273
100	 4	 261	 13	 object_1.jpg	 cor	 1	 c	 1	 1	 0.636387
100	 4	 262	 17	 object_34.jpg	 cor	 1	 c	 1	 1	 0.719293
100	 4	 263	 14	 object_13.jpg	 cor	 1	 c	 1	 1	 0.805792
100	 4	 264	 15	 object_9.jpg	 cor	 1	 c	 1	 1	 1.023444
100	 4	 265	 14	 object_13.jpg	 rot	 0	 n	 2	 1	 1.000314
100	 4	 266	 11	 object_3.jpg	 cor	 1	 c	 1	 1	 0.669408
100	 4	 267	 10	 object_2.jpg	 cor	 1	 c	 1	 1	 0.563044
100	 4	 268	 6	 object_18.jpg	 cor	 1	 c	 1	 1	 0.585207
100	 4	 269	 10	 object_2.jpg	 rot	 0	 n	 2	 1	 0.804239
100	 4	 270	 7	 object_17.jpg	 cor	 1	 c	 1	 1	 0.752951
100	 4	 271	 6	 object_18.jpg	 cor	 1	 c	 1	 1	 0.720192
100	 4	 272	 10	 object_2.jpg	 cor	 1	 c	 1	 1	 0.599741
100	 4	 273	 7	 object_17.jpg	 cor	 1	 c	 1	 1	 0.543038
100	 4	 274	 10	 object_2.jpg	 rot	 0	 n	 2	 1	 0.673508
100	 4	 275	 6	 object_18.jpg	 cor	 1	 c	 1	 1	 1.011877
100	 4	 276	 9	 object_35.jpg	 cor	 1	 c	 1	 1	 0.672360
100	 4	 277	 4	 object_12.jpg	 cor	 1	 c	 1	 1	 0.567743
100	 4	 278	 7	 object_17.jpg	 cor	 1	 c	 1	 1	 0.545771
100	 4	 279	 4	 object_12.jpg	 rot	 0	 n	 2	 1	 0.632337
100	 4	 280	 6	 object_18.jpg	 cor	 1	 c	 1	 1	 0.551271
100	 4	 281	 4	 object_12.jpg	 rot	 0	 n	 2	 1	 0.659317
100	 4	 282	 6	 object_18.jpg	 rot	 0	 n	 2	 1	 0.587078
100	 4	 283	 4	 object_12.jpg	 rot	 0	 n	 2	 1	 0.614519
100	 4	 284	 3	 object_7.jpg	 cor	 1	 c	 1	 1	 0.609391
100	 4	 285	 2	 object_23.jpg	 cor	 1	 c	 1	 1	 0.640991
100	 4	 286	 18	 object_10.jpg	 cor	 1	 c	 1	 1	 0.620062
100	 4	 287	 2	 object_23.jpg	 rot	 0	 n	 2	 1	 0.837887
100	 4	 288	 1	 object_6.jpg	 cor	 1	 c	 1	 1	 0.726788
100	 4	 289	 21	 object_25.jpg	 cor	 1	 c	 1	 1	 0.660361
100	 4	 290	 2	 object_23.jpg	 cor	 1	 c	 1	 1	 0.664673
100	 4	 291	 3	 object_7.jpg	 cor	 1	 c	 1	 1	 0.606994
100	 4	 292	 19	 object_4.jpg	 cor	 1	 c	 1	 1	 0.532951
100	 4	 293	 1	 object_6.jpg	 cor	 1	 c	 1	 1	 0.692111
100	 4	 294	 19	 object_4.jpg	 rot	 0	 n	 2	 1	 0.809044
100	 4	 295	 3	 object_7.jpg	 cor	 1	 c	 1	 1	 0.614568
100	 4	 296	 21	 object_25.jpg	 cor	 1	 c	 1	 1	 0.689894
100	 4	 297	 18	 object_10.jpg	 cor	 1	 c	 1	 1	 0.577875
100	 4	 298	 21	 object_25.jpg	 rot	 0	 n	 2	 1	 0.744754
100	 4	 299	 3	 object_7.jpg	 cor	 1	 c	 1	 1	 0.599902
100	 4	 300	 20	 object_16.jpg	 cor	 1	 c	 1	 1	 0.604791
100	 4	 301	 21	 object_25.jpg	 cor	 1	 c	 1	 1	 0.539858
100	 4	 302	 19	 object_4.jpg	 cor	 1	 c	 1	 1	 0.800872
100	 4	 303	 1	 object_6.jpg	 cor	 1	 c	 1	 1	 0.562865
100	 4	 304	 20	 object_16.jpg	 cor	 1	 c	 1	 1	 0.522791
100	 4	 305	 19	 object_4.jpg	 cor	 1	 c	 1	 1	 0.496692
100	 4	 306	 1	 object_6.jpg	 cor	 1	 c	 1	 1	 0.513246
100	 4	 307	 18	 object_10.jpg	 cor	 1	 c	 1	 1	 0.587671
100	 4	 308	 1	 object_6.jpg	 rot	 0	 n	 2	 1	 0.742241
100	 4	 309	 2	 object_23.jpg	 cor	 1	 c	 1	 1	 0.626383
100	 4	 310	 21	 object_25.jpg	 cor	 1	 c	 1	 1	 0.610151
100	 4	 311	 2	 object_23.jpg	 rot	 0	 n	 2	 1	 0.632219
100	 4	 312	 20	 object_16.jpg	 cor	 1	 c	 1	 1	 0.591604
100	 4	 313	 21	 object_25.jpg	 cor	 1	 c	 1	 1	 0.589501
100	 4	 314	 3	 object_7.jpg	 cor	 1	 c	 1	 1	 0.536555
100	 4	 315	 2	 object_23.jpg	 cor	 1	 c	 1	 1	 0.576133
