SubjNum	 run	 trial	 seqtype	 objnum	 file	 orientnam	 orientnum	 resp	 respnum	 acc	 rt
100	 1	 1	 NaN	 NaN	 NaN	 NaN	 NaN	 NaN	 NaN	 NaN	 NaN
100	 1	 2	 NaN	 NaN	 NaN	 NaN	 NaN	 NaN	 NaN	 NaN	 NaN
100	 1	 3	 1	 18	 object_10.jpg	 cor	 1	 c	 1	 1	 0.847282
100	 1	 4	 1	 20	 object_16.jpg	 cor	 1	 c	 1	 1	 0.928597
100	 1	 5	 1	 3	 object_7.jpg	 cor	 1	 c	 1	 1	 0.628938
100	 1	 6	 1	 21	 object_25.jpg	 cor	 1	 c	 1	 1	 0.808263
100	 1	 7	 1	 19	 object_4.jpg	 cor	 1	 c	 1	 1	 0.519963
100	 1	 8	 1	 3	 object_7.jpg	 cor	 1	 c	 1	 1	 0.603826
100	 1	 9	 1	 20	 object_16.jpg	 cor	 1	 c	 1	 1	 0.649900
100	 1	 10	 1	 2	 object_23.jpg	 cor	 1	 c	 1	 1	 0.559271
100	 1	 11	 1	 18	 object_10.jpg	 cor	 1	 c	 1	 1	 0.591284
100	 1	 12	 1	 19	 object_4.jpg	 cor	 1	 c	 1	 1	 0.556341
100	 1	 13	 1	 20	 object_16.jpg	 cor	 1	 c	 1	 1	 0.566367
100	 1	 14	 1	 19	 object_4.jpg	 rot	 0	 n	 2	 1	 0.925354
100	 1	 15	 1	 18	 object_10.jpg	 cor	 1	 c	 1	 1	 0.685422
100	 1	 16	 1	 19	 object_4.jpg	 rot	 0	 n	 2	 1	 0.758422
100	 1	 17	 1	 1	 object_6.jpg	 cor	 1	 c	 1	 1	 0.607040
100	 1	 18	 1	 3	 object_7.jpg	 cor	 1	 c	 1	 1	 0.924882
100	 1	 19	 1	 19	 object_4.jpg	 cor	 1	 c	 1	 1	 0.577877
100	 1	 20	 1	 20	 object_16.jpg	 cor	 1	 c	 1	 1	 0.608452
100	 1	 21	 1	 3	 object_7.jpg	 cor	 1	 c	 1	 1	 0.597943
100	 1	 22	 1	 21	 object_25.jpg	 cor	 1	 c	 1	 1	 0.535881
100	 1	 23	 1	 20	 object_16.jpg	 cor	 1	 c	 1	 1	 0.533390
100	 1	 24	 1	 19	 object_4.jpg	 cor	 1	 c	 1	 1	 0.749811
100	 1	 25	 1	 3	 object_7.jpg	 cor	 1	 c	 1	 1	 0.516695
100	 1	 26	 1	 21	 object_25.jpg	 cor	 1	 c	 1	 1	 0.539913
100	 1	 27	 1	 1	 object_6.jpg	 cor	 1	 c	 1	 1	 0.632702
100	 1	 28	 1	 19	 object_4.jpg	 cor	 1	 c	 1	 1	 0.775107
100	 1	 29	 1	 1	 object_6.jpg	 rot	 0	 n	 2	 1	 0.757174
100	 1	 30	 1	 3	 object_7.jpg	 cor	 1	 c	 1	 1	 0.574710
100	 1	 31	 1	 19	 object_4.jpg	 cor	 1	 c	 1	 1	 0.622714
100	 1	 32	 1	 18	 object_10.jpg	 cor	 1	 c	 1	 1	 0.593145
100	 1	 33	 1	 20	 object_16.jpg	 cor	 1	 c	 1	 1	 0.659498
100	 1	 34	 1	 21	 object_25.jpg	 cor	 1	 c	 1	 1	 0.681015
100	 1	 35	 1	 1	 object_6.jpg	 cor	 1	 c	 1	 1	 0.575788
100	 1	 36	 1	 3	 object_7.jpg	 cor	 1	 c	 1	 1	 0.595954
100	 1	 37	 1	 2	 object_23.jpg	 cor	 1	 c	 1	 1	 0.596200
100	 1	 38	 1	 3	 object_7.jpg	 rot	 0	 n	 2	 1	 0.781143
100	 1	 39	 1	 4	 object_12.jpg	 cor	 1	 c	 1	 1	 0.557797
100	 1	 40	 1	 5	 object_30.jpg	 cor	 1	 c	 1	 1	 0.555128
100	 1	 41	 1	 6	 object_18.jpg	 cor	 1	 c	 1	 1	 0.588146
100	 1	 42	 1	 8	 object_24.jpg	 cor	 1	 c	 1	 1	 0.594113
100	 1	 43	 1	 10	 object_2.jpg	 cor	 1	 c	 1	 1	 0.817654
100	 1	 44	 1	 6	 object_18.jpg	 cor	 1	 c	 1	 1	 0.595651
100	 1	 45	 2	 9	 object_35.jpg	 cor	 1	 c	 1	 1	 0.828698
100	 1	 46	 2	 17	 object_34.jpg	 cor	 1	 c	 1	 1	 0.996618
100	 1	 47	 2	 6	 object_18.jpg	 cor	 1	 c	 1	 1	 0.540167
100	 1	 48	 2	 12	 object_36.jpg	 cor	 1	 c	 1	 1	 0.791333
100	 1	 49	 2	 11	 object_3.jpg	 cor	 1	 c	 1	 1	 0.587916
100	 1	 50	 2	 14	 object_13.jpg	 cor	 1	 c	 1	 1	 0.666770
100	 1	 51	 2	 3	 object_7.jpg	 cor	 1	 c	 1	 1	 0.682020
100	 1	 52	 2	 5	 object_30.jpg	 cor	 1	 c	 1	 1	 0.641461
100	 1	 53	 2	 4	 object_12.jpg	 cor	 1	 c	 1	 1	 0.519364
100	 1	 54	 2	 21	 object_25.jpg	 cor	 1	 c	 1	 1	 0.581671
100	 1	 55	 2	 8	 object_24.jpg	 cor	 1	 c	 1	 1	 0.590585
100	 1	 56	 2	 2	 object_23.jpg	 cor	 1	 c	 1	 1	 0.625488
100	 1	 57	 2	 20	 object_16.jpg	 cor	 1	 c	 1	 1	 0.807009
100	 1	 58	 2	 7	 object_17.jpg	 cor	 1	 c	 1	 1	 0.631883
100	 1	 59	 2	 10	 object_2.jpg	 cor	 1	 c	 1	 1	 0.599405
100	 1	 60	 2	 16	 object_28.jpg	 cor	 1	 c	 1	 1	 0.708791
100	 1	 61	 2	 13	 object_1.jpg	 cor	 1	 c	 1	 1	 0.549103
100	 1	 62	 2	 1	 object_6.jpg	 cor	 1	 c	 1	 1	 0.548042
100	 1	 63	 2	 19	 object_4.jpg	 cor	 1	 c	 1	 1	 0.651150
100	 1	 64	 2	 15	 object_9.jpg	 cor	 1	 c	 1	 1	 0.752863
100	 1	 65	 2	 18	 object_10.jpg	 cor	 1	 NaN	 0	 0	 NaN
100	 1	 66	 1	 1	 object_6.jpg	 cor	 1	 c	 1	 1	 0.554182
100	 1	 67	 1	 20	 object_16.jpg	 cor	 1	 c	 1	 1	 0.548507
100	 1	 68	 1	 2	 object_23.jpg	 cor	 1	 c	 1	 1	 0.557630
100	 1	 69	 1	 3	 object_7.jpg	 cor	 1	 c	 1	 1	 0.537227
100	 1	 70	 1	 4	 object_12.jpg	 cor	 1	 c	 1	 1	 0.763866
100	 1	 71	 1	 8	 object_24.jpg	 cor	 1	 c	 1	 1	 0.410477
100	 1	 72	 1	 4	 object_12.jpg	 rot	 0	 n	 2	 1	 0.758429
100	 1	 73	 1	 9	 object_35.jpg	 cor	 1	 c	 1	 1	 0.737874
100	 1	 74	 1	 8	 object_24.jpg	 cor	 1	 c	 1	 1	 0.826360
100	 1	 75	 1	 10	 object_2.jpg	 cor	 1	 c	 1	 1	 0.591183
100	 1	 76	 1	 8	 object_24.jpg	 rot	 0	 c	 1	 0	 0.590855
100	 1	 77	 1	 7	 object_17.jpg	 cor	 1	 c	 1	 1	 0.531711
100	 1	 78	 1	 6	 object_18.jpg	 cor	 1	 c	 1	 1	 0.561698
100	 1	 79	 1	 10	 object_2.jpg	 cor	 1	 c	 1	 1	 0.548117
100	 1	 80	 1	 8	 object_24.jpg	 cor	 1	 c	 1	 1	 0.647280
100	 1	 81	 1	 10	 object_2.jpg	 rot	 0	 n	 2	 1	 0.849296
100	 1	 82	 1	 9	 object_35.jpg	 cor	 1	 c	 1	 1	 0.566710
100	 1	 83	 1	 8	 object_24.jpg	 cor	 1	 c	 1	 1	 0.561059
100	 1	 84	 1	 9	 object_35.jpg	 rot	 0	 n	 2	 1	 0.826102
100	 1	 85	 1	 10	 object_2.jpg	 cor	 1	 c	 1	 1	 0.647230
100	 1	 86	 1	 8	 object_24.jpg	 cor	 1	 c	 1	 1	 0.606703
100	 1	 87	 1	 5	 object_30.jpg	 cor	 1	 c	 1	 1	 0.539063
100	 1	 88	 1	 8	 object_24.jpg	 rot	 0	 n	 2	 1	 0.697429
100	 1	 89	 1	 9	 object_35.jpg	 cor	 1	 c	 1	 1	 0.693301
100	 1	 90	 1	 6	 object_18.jpg	 cor	 1	 c	 1	 1	 0.682837
100	 1	 91	 1	 5	 object_30.jpg	 cor	 1	 c	 1	 1	 0.587802
100	 1	 92	 1	 10	 object_2.jpg	 cor	 1	 c	 1	 1	 0.835103
100	 1	 93	 1	 6	 object_18.jpg	 cor	 1	 c	 1	 1	 0.559454
100	 1	 94	 1	 7	 object_17.jpg	 cor	 1	 c	 1	 1	 0.564856
100	 1	 95	 1	 6	 object_18.jpg	 rot	 0	 n	 2	 1	 0.994599
100	 1	 96	 1	 7	 object_17.jpg	 rot	 0	 n	 2	 1	 0.793004
100	 1	 97	 1	 6	 object_18.jpg	 rot	 0	 c	 1	 0	 0.645076
100	 1	 98	 1	 5	 object_30.jpg	 cor	 1	 c	 1	 1	 0.565166
100	 1	 99	 1	 6	 object_18.jpg	 rot	 0	 n	 2	 1	 0.565696
100	 1	 100	 1	 9	 object_35.jpg	 cor	 1	 c	 1	 1	 0.825199
100	 1	 101	 1	 10	 object_2.jpg	 cor	 1	 NaN	 0	 0	 NaN
100	 1	 102	 1	 7	 object_17.jpg	 cor	 1	 c	 1	 1	 0.908191
100	 1	 103	 1	 5	 object_30.jpg	 cor	 1	 c	 1	 1	 0.622284
100	 1	 104	 1	 8	 object_24.jpg	 cor	 1	 c	 1	 1	 0.855781
100	 1	 105	 1	 10	 object_2.jpg	 cor	 1	 c	 1	 1	 0.825949
100	 1	 106	 1	 9	 object_35.jpg	 cor	 1	 NaN	 0	 0	 NaN
100	 1	 107	 1	 5	 object_30.jpg	 cor	 1	 c	 1	 1	 0.606409
100	 1	 108	 2	 15	 object_9.jpg	 cor	 1	 c	 1	 1	 0.770712
100	 1	 109	 2	 17	 object_34.jpg	 cor	 1	 c	 1	 1	 0.544015
100	 1	 110	 2	 2	 object_23.jpg	 cor	 1	 c	 1	 1	 0.610148
100	 1	 111	 2	 20	 object_16.jpg	 cor	 1	 c	 1	 1	 0.600663
100	 1	 112	 2	 18	 object_10.jpg	 cor	 1	 c	 1	 1	 0.856554
100	 1	 113	 2	 8	 object_24.jpg	 cor	 1	 c	 1	 1	 0.982642
100	 1	 114	 2	 14	 object_13.jpg	 cor	 1	 c	 1	 1	 0.818987
100	 1	 115	 2	 11	 object_3.jpg	 cor	 1	 c	 1	 1	 0.753135
100	 1	 116	 2	 19	 object_4.jpg	 cor	 1	 c	 1	 1	 0.854790
100	 1	 117	 2	 7	 object_17.jpg	 cor	 1	 c	 1	 1	 0.886298
100	 1	 118	 2	 5	 object_30.jpg	 cor	 1	 c	 1	 1	 0.630854
100	 1	 119	 2	 4	 object_12.jpg	 cor	 1	 NaN	 0	 0	 NaN
100	 1	 120	 2	 6	 object_18.jpg	 cor	 1	 c	 1	 1	 0.711379
100	 1	 121	 2	 3	 object_7.jpg	 cor	 1	 c	 1	 1	 0.610518
100	 1	 122	 2	 12	 object_36.jpg	 cor	 1	 NaN	 0	 0	 NaN
100	 1	 123	 2	 16	 object_28.jpg	 cor	 1	 c	 1	 1	 0.720198
100	 1	 124	 2	 13	 object_1.jpg	 cor	 1	 c	 1	 1	 0.606283
100	 1	 125	 2	 21	 object_25.jpg	 cor	 1	 c	 1	 1	 0.715282
100	 1	 126	 2	 9	 object_35.jpg	 cor	 1	 NaN	 0	 0	 NaN
100	 1	 127	 2	 10	 object_2.jpg	 cor	 1	 c	 1	 1	 0.670291
100	 1	 128	 2	 1	 object_6.jpg	 cor	 1	 c	 1	 1	 0.558798
100	 1	 129	 1	 3	 object_7.jpg	 cor	 1	 c	 1	 1	 0.689618
100	 1	 130	 1	 19	 object_4.jpg	 cor	 1	 c	 1	 1	 0.601035
100	 1	 131	 1	 21	 object_25.jpg	 cor	 1	 NaN	 0	 0	 NaN
100	 1	 132	 1	 3	 object_7.jpg	 cor	 1	 c	 1	 1	 0.866859
100	 1	 133	 1	 20	 object_16.jpg	 cor	 1	 NaN	 0	 0	 NaN
100	 1	 134	 1	 2	 object_23.jpg	 cor	 1	 c	 1	 1	 0.595960
100	 1	 135	 1	 19	 object_4.jpg	 cor	 1	 c	 1	 1	 0.520652
100	 1	 136	 1	 20	 object_16.jpg	 cor	 1	 c	 1	 1	 0.561564
100	 1	 137	 1	 3	 object_7.jpg	 cor	 1	 c	 1	 1	 0.471825
100	 1	 138	 1	 4	 object_12.jpg	 cor	 1	 NaN	 0	 0	 NaN
100	 1	 139	 1	 3	 object_7.jpg	 rot	 0	 n	 2	 1	 0.805208
100	 1	 140	 1	 2	 object_23.jpg	 cor	 1	 c	 1	 1	 0.724815
100	 1	 141	 1	 21	 object_25.jpg	 cor	 1	 c	 1	 1	 0.704289
100	 1	 142	 1	 3	 object_7.jpg	 cor	 1	 c	 1	 1	 0.764929
100	 1	 143	 1	 4	 object_12.jpg	 cor	 1	 c	 1	 1	 0.500307
100	 1	 144	 1	 8	 object_24.jpg	 cor	 1	 c	 1	 1	 0.579037
100	 1	 145	 1	 10	 object_2.jpg	 cor	 1	 NaN	 0	 0	 NaN
100	 1	 146	 1	 7	 object_17.jpg	 cor	 1	 c	 1	 1	 0.561238
100	 1	 147	 1	 5	 object_30.jpg	 cor	 1	 c	 1	 1	 0.724605
100	 1	 148	 1	 7	 object_17.jpg	 rot	 0	 NaN	 0	 0	 NaN
100	 1	 149	 1	 8	 object_24.jpg	 cor	 1	 c	 1	 1	 0.934948
100	 1	 150	 NaN	 NaN	 NaN	 NaN	 NaN	 NaN	 NaN	 NaN	 NaN
100	 1	 151	 NaN	 NaN	 NaN	 NaN	 NaN	 NaN	 NaN	 NaN	 NaN
